Folder: sciapps/files

Note: files/Sample.txt
360 9.09204E-4
362 7.85221E-4
364 7.02566E-4
366 9.09204E-4
368 7.43894E-4
370 7.43894E-4
372 8.26549E-4
374 6.61239E-4
376 7.43894E-4
378 8.26549E-4
380 7.02566E-4
382 6.19912E-4
384 5.78584E-4
386 4.54602E-4
388 5.37257E-4
390 5.37257E-4
392 5.78584E-4
394 4.95929E-4
396 5.78584E-4
398 7.43894E-4
400 8.26549E-4
402 9.91858E-4
404 0.0012
406 0.00112
408 0.00116
410 0.00132
412 0.00141
414 0.00145
416 0.00145
418 0.00161
420 0.00165
422 0.00157
424 0.00157
426 0.00153
428 0.00145
430 0.00149
432 0.00141
434 0.00136
436 0.00149
438 0.00136
440 0.00141
442 0.00145
444 0.00128
446 0.00107
448 0.00132
450 0.00153
452 0.00153
454 0.00153
456 0.00145
458 0.00157
460 0.00161
462 0.00153
464 0.00136
466 0.00136
468 0.00149
470 0.00153
472 0.00141
474 0.00157
476 0.00161
478 0.00169
480 0.00169
482 0.00169
484 0.00169
486 0.00153
488 0.00149
490 0.00145
492 0.00141
494 0.00141
496 0.00145
498 0.00149
500 0.00153
502 0.00149
504 0.00149
506 0.00145
508 0.00153
510 0.00161
512 0.0019
514 0.00198
516 0.00198
518 0.00223
520 0.00256
522 0.00302
524 0.00339
526 0.00409
528 0.00475
530 0.00554
532 0.00682
534 0.00831
536 0.01004
538 0.01182
540 0.01418
542 0.01694
544 0.01992
546 0.0238
548 0.02839
550 0.03438
552 0.04162
554 0.05042
556 0.0624
558 0.07732
560 0.09571
562 0.1182
564 0.14725
566 0.18201
568 0.22205
570 0.26879
572 0.32215
574 0.38174
576 0.44663
578 0.51234
580 0.58011
582 0.64913
584 0.71484
586 0.77601
588 0.83138
590 0.88222
592 0.92272
594 0.95454
596 0.97644
598 0.99463
600 0.99959
602 0.99711
604 0.9876
606 0.97355
608 0.9533
610 0.92892
612 0.90164
614 0.87312
616 0.84296
618 0.81113
620 0.77931
622 0.74997
624 0.72021
626 0.6917
628 0.66483
630 0.64004
632 0.61648
634 0.59416
636 0.57267
638 0.55118
640 0.53052
642 0.51068
644 0.49209
646 0.47349
648 0.45572
650 0.43753
652 0.41935
654 0.40034
656 0.38215
658 0.36347
660 0.34479
662 0.32649
664 0.30909
666 0.29206
668 0.27458
670 0.25809
672 0.24267
674 0.22788
676 0.21354
678 0.1999
680 0.18709
682 0.17523
684 0.16382
686 0.15291
688 0.14299
690 0.13345
692 0.12493
694 0.11646
696 0.1089
698 0.10175
700 0.0953
702 0.08968
704 0.08485
706 0.08059
708 0.0765
710 0.07257
712 0.06873
714 0.06521
716 0.06195
718 0.05856
720 0.05538
722 0.05232
724 0.04947
726 0.04666
728 0.04368
730 0.04075
732 0.03806
734 0.03579
736 0.03335
738 0.0312
740 0.02918
742 0.02715
744 0.02517
746 0.02356
748 0.02182
750 0.02021
752 0.0188
754 0.01752
756 0.01637
758 0.01517
760 0.01405
762 0.01327
764 0.01232
766 0.01141
768 0.01066
770 0.00996
772 0.00938
774 0.00872
776 0.00818
778 0.00765
780 0.00719
782 0.00694
784 0.00665
786 0.00624
788 0.00599
790 0.00566
792 0.0055
794 0.00546
796 0.00512
798 0.00492
800 0.00488

File: ZnO_Eu.csv
Sample 24,
Wavelength (nm),Intensity (a.u.)
500,0.341401
502.05,0.333109
503.97,0.446875
506.02,0.636613
507.94,0.369551
510,0.162374
511.94,0.475834
514.02,0.372536
515.97,0.850919
518.05,0.495836
520,0.607487
522.05,0.307143
523.97,0.196165
526.02,0.508382
527.94,0.708291
530,0.326332
532.05,0.890646
533.97,0.57079
536.02,1.00402
537.94,0.968572
540,0.701066
542.05,0.790599
543.97,0.71383
546.02,0.580475
547.94,0.181905
550,0.175421
552.05,0.346686
553.97,0.680546
556.02,0.843031
557.94,0.570275
560,0.963998
562.05,0.817283
563.97,1.58046
566.02,1.71782
567.94,2.10616
570,5.94074
572.02,11.3464
574.05,29.8177
575.94,57.3359
577.97,70.1413
580,57.7865
582.02,49.4823
584.05,64.369
585.94,79.6423
587.97,93.5762
590,103.314
592.05,103.434
593.97,94.5519
596.02,87.54
597.94,81.0906
600,66.4898
602,57.1997
604,66.0974
606,118.165
608,237.12
610,380.54
612.02,504.06
614.05,536.619
615.94,512.113
617.97,466.592
620,399.478
622.02,340.098
624.05,280.369
625.94,219.55
627.97,156.919
630,97.6999
632,57.7751
634,31.2988
636,21.3375
638,16.2787
640,14.2051
642,13.0433
644,14.3353
646,16.7379
648,20.568
650,23.8539
652,28.9141
654,26.6579
656,26.0946
658,20.4465
660,13.9442
662,8.90058
664,6.10661
666,4.23779
668,4.15321
670,3.57322
671.97,4.18176
673.94,4.2043
676.05,3.90677
678.02,5.01236
680,6.86875
681.97,9.10746
683.94,12.7557
686.05,16.1476
688.02,18.7498
690,23.7691
691.97,27.071
693.94,31.8228
696.05,35.5338
698.02,41.4832
700,52.3942
701.97,62.4158
703.94,66.8438
706.05,60.5327
708.02,41.8291
710,22.0671
711.94,10.0691
714.02,5.15783
715.97,2.69124
718.05,2.31565
720,1.69202
721.97,1.12998
723.94,1.18853
726.05,0.829665
728.02,0.743532
730,0.4776
732.05,0.737408
733.97,0.737896
736.02,0.879291
737.94,1.05901
740,1.21418
741.94,0.933942
744.02,1.41702
745.97,1.78224
748.05,1.86575
750,1.39297
751.94,1.53641
754.02,1.55209
755.97,0.496543
758.05,0.922422
760,0.771552
762.05,0.847473
763.97,0.763719
766.02,0.887083
767.94,0.239064
770,0.438209
772.05,0.614312
773.97,0.225629
776.02,0.230822
777.94,0.864533
780,0.0936961
782.02,0
784.05,0.724368
785.94,0.300807
787.97,0.213365
790,0.295638
792.02,0.392197
794.05,1.09723
795.94,0.5476
797.97,0.727711
800,0.926507
802.02,1.29745
804.05,1.32739
805.94,1.50039
807.97,1.21798
810,1.20197
812.02,1.45513
814.05,0.79017
815.94,0.594824
817.97,1.23673
820,0.887977
822,0.895706
824,0.910798
826,0.819171
828,0.455615
830,0.515795
832,0.280713
834,0.428611
836,0
838,0
840,0.224749
842,0.3349
844,0.69484
846,0.262467
848,0
850,0
851.97,0.376974
853.94,0.294118
856.05,0.0944002
858.02,0.306003
860,0
861.97,0.419957
863.94,0.138083
866.05,0.105714
868.02,0.209513
870,0.131794
871.94,0.199019
874.02,0.156947
875.97,0
878.05,0.0997923
880,0.213936
881.94,0.144294
884.02,0
885.97,0
888.05,0
890,0
891.94,0
894.02,0
895.97,0.165573
898.05,0
900,0.0822504